"id","expname","subject","ip","condnum","choice","submitted","round","event","name","value","time","addvar","adddata"
"1","exp_ml1","179","::1","1","","2019-03-25 16:43:00","1","onload","body","body","29","null","null"
"1","exp_ml1","179","::1","1","","2019-03-25 16:43:00","1","subject","random","0","32","null","null"
"1","exp_ml1","179","::1","1","","2019-03-25 16:43:00","1","order","col","0_1","32","null","null"
"1","exp_ml1","179","::1","1","","2019-03-25 16:43:00","1","order","row","0_1","32","null","null"
"1","exp_ml1","179","::1","1","","2019-03-25 16:43:00","1","events","open_close","0_0","32","null","null"
"1","exp_ml1","179","::1","1","","2019-03-25 16:43:00","1","mouseover","a1","1x evaded amount","59","null","null"
"1","exp_ml1","179","::1","1","","2019-03-25 16:43:00","1","mouseout","a1","","970","null","null"
"1","exp_ml1","179","::1","1","","2019-03-25 16:43:00","1","mouseover","a0","10% chance","1021","null","null"
"1","exp_ml1","179","::1","1","","2019-03-25 16:43:00","1","mouseout","a0","","1788","null","null"
"1","exp_ml1","179","::1","1","","2019-03-25 16:43:00","1","mouseover","b0","Tax (40%): 720 ECU ","1788","null","null"
"1","exp_ml1","179","::1","1","","2019-03-25 16:43:00","1","mouseout","b0","","2171","null","null"
"1","exp_ml1","179","::1","1","","2019-03-25 16:43:00","1","mouseover","b1","1800 ECU","2171","null","null"
"1","exp_ml1","179","::1","1","","2019-03-25 16:43:00","1","mouseout","b1","","5570","null","null"
"1","exp_ml1","179","::1","1","","2019-03-25 16:43:00","1","mouseover","a1","1x evaded amount","5570","null","null"
"1","exp_ml1","179","::1","1","","2019-03-25 16:43:00","1","mouseout","a1","","6620","null","null"
"1","exp_ml1","179","::1","1","","2019-03-25 16:43:00","1","mouseover","a0","10% chance","6621","null","null"
"1","exp_ml1","179","::1","1","","2019-03-25 16:43:00","1","mouseout","a0","","7505","null","null"
"1","exp_ml1","179","::1","1","","2019-03-25 16:43:00","1","mouseover","b0","Tax (40%): 720 ECU ","7505","null","null"
"1","exp_ml1","179","::1","1","","2019-03-25 16:43:00","1","mouseout","b0","","9054","null","null"
"1","exp_ml1","179","::1","1","","2019-03-25 16:43:00","1","mouseover","a0","10% chance","9054","null","null"
"1","exp_ml1","179","::1","1","","2019-03-25 16:43:00","1","mouseout","a0","","9103","null","null"
"1","exp_ml1","179","::1","1","","2019-03-25 16:43:00","1","mouseover","a1","1x evaded amount","9121","null","null"
"1","exp_ml1","179","::1","1","","2019-03-25 16:43:00","1","mouseout","a1","","9955","null","null"
"1","exp_ml1","179","::1","1","","2019-03-25 16:43:00","1","mouseover","b1","1800 ECU","9971","null","null"
"1","exp_ml1","179","::1","1","","2019-03-25 16:43:00","1","mouseout","b1","","10637","null","null"
"1","exp_ml1","179","::1","1","","2019-03-25 16:43:00","1","mouseover","a1","1x evaded amount","10637","null","null"
"1","exp_ml1","179","::1","1","","2019-03-25 16:43:00","1","mouseout","a1","","10770","null","null"
"1","exp_ml1","179","::1","1","","2019-03-25 16:43:00","1","mouseover","a0","10% chance","10854","null","null"
"1","exp_ml1","179","::1","1","","2019-03-25 16:43:00","1","mouseout","a0","","12655","null","null"
"1","exp_ml1","179","::1","1","","2019-03-25 16:43:00","1","mouseover","b0","Tax (40%): 720 ECU ","12655","null","null"
"1","exp_ml1","179","::1","1","","2019-03-25 16:43:00","1","mouseout","b0","","13388","null","null"
"1","exp_ml1","179","::1","1","","2019-03-25 16:43:00","1","mouseover","b1","1800 ECU","13388","null","null"
"1","exp_ml1","179","::1","1","","2019-03-25 16:43:00","1","mouseout","b1","","13820","null","null"
"1","exp_ml1","179","::1","1","","2019-03-25 16:43:00","1","mouseover","b1","1800 ECU","25071","null","null"
"1","exp_ml1","179","::1","1","","2019-03-25 16:43:00","1","mouseout","b1","","25254","null","null"
"1","exp_ml1","179","::1","1","","2019-03-25 16:43:00","1","mouseover","b1","1800 ECU","25487","null","null"
"1","exp_ml1","179","::1","1","","2019-03-25 16:43:00","1","mouseout","b1","","25636","null","null"
"1","exp_ml1","179","::1","1","","2019-03-25 16:43:00","1","mouseover","b1","1800 ECU","25704","null","null"
"1","exp_ml1","179","::1","1","","2019-03-25 16:43:00","1","mouseout","b1","","26370","null","null"
"1","exp_ml1","179","::1","1","","2019-03-25 16:43:00","1","submit","submit","submit","27266","null","null"
"2","exp_ml1","179","::1","1","","2019-03-25 16:43:38","2","onload","body","body","26","null","null"
"2","exp_ml1","179","::1","1","","2019-03-25 16:43:38","2","subject","random","0","28","null","null"
"2","exp_ml1","179","::1","1","","2019-03-25 16:43:38","2","order","col","0_1","28","null","null"
"2","exp_ml1","179","::1","1","","2019-03-25 16:43:38","2","order","row","0_1","28","null","null"
"2","exp_ml1","179","::1","1","","2019-03-25 16:43:38","2","events","open_close","0_0","28","null","null"
"2","exp_ml1","179","::1","1","","2019-03-25 16:43:38","2","mouseover","b0","Tax (20%): 240 ECU ","743","null","null"
"2","exp_ml1","179","::1","1","","2019-03-25 16:43:38","2","mouseout","b0","","843","null","null"
"2","exp_ml1","179","::1","1","","2019-03-25 16:43:38","2","mouseover","a0","20% chance","909","null","null"
"2","exp_ml1","179","::1","1","","2019-03-25 16:43:38","2","mouseout","a0","","1359","null","null"
"2","exp_ml1","179","::1","1","","2019-03-25 16:43:38","2","mouseover","a1","2x evaded amount","1360","null","null"
"2","exp_ml1","179","::1","1","","2019-03-25 16:43:38","2","mouseout","a1","","1809","null","null"
"2","exp_ml1","179","::1","1","","2019-03-25 16:43:38","2","mouseover","b1","1200 ECU","1842","null","null"
"2","exp_ml1","179","::1","1","","2019-03-25 16:43:38","2","mouseout","b1","","2226","null","null"
"2","exp_ml1","179","::1","1","","2019-03-25 16:43:38","2","mouseover","b0","Tax (20%): 240 ECU ","2226","null","null"
"2","exp_ml1","179","::1","1","","2019-03-25 16:43:38","2","mouseout","b0","","2860","null","null"
"2","exp_ml1","179","::1","1","","2019-03-25 16:43:38","2","mouseover","a0","20% chance","2875","null","null"
"2","exp_ml1","179","::1","1","","2019-03-25 16:43:38","2","mouseout","a0","","3544","null","null"
"2","exp_ml1","179","::1","1","","2019-03-25 16:43:38","2","mouseover","b0","Tax (20%): 240 ECU ","3544","null","null"
"2","exp_ml1","179","::1","1","","2019-03-25 16:43:38","2","mouseout","b0","","3826","null","null"
"2","exp_ml1","179","::1","1","","2019-03-25 16:43:38","2","mouseover","b1","1200 ECU","3842","null","null"
"2","exp_ml1","179","::1","1","","2019-03-25 16:43:38","2","mouseout","b1","","4076","null","null"
"2","exp_ml1","179","::1","1","","2019-03-25 16:43:38","2","mouseover","b1","1200 ECU","5076","null","null"
"2","exp_ml1","179","::1","1","","2019-03-25 16:43:38","2","mouseout","b1","","5475","null","null"
"2","exp_ml1","179","::1","1","","2019-03-25 16:43:38","2","mouseover","a1","2x evaded amount","5492","null","null"
"2","exp_ml1","179","::1","1","","2019-03-25 16:43:38","2","mouseout","a1","","5992","null","null"
"2","exp_ml1","179","::1","1","","2019-03-25 16:43:38","2","mouseover","b1","1200 ECU","6008","null","null"
"2","exp_ml1","179","::1","1","","2019-03-25 16:43:38","2","mouseout","b1","","6043","null","null"
"2","exp_ml1","179","::1","1","","2019-03-25 16:43:38","2","mouseover","b0","Tax (20%): 240 ECU ","6043","null","null"
"2","exp_ml1","179","::1","1","","2019-03-25 16:43:38","2","mouseout","b0","","6092","null","null"
"2","exp_ml1","179","::1","1","","2019-03-25 16:43:38","2","mouseover","b0","Tax (20%): 240 ECU ","6459","null","null"
"2","exp_ml1","179","::1","1","","2019-03-25 16:43:38","2","mouseout","b0","","7092","null","null"
"2","exp_ml1","179","::1","1","","2019-03-25 16:43:38","2","mouseover","a0","20% chance","7092","null","null"
"2","exp_ml1","179","::1","1","","2019-03-25 16:43:38","2","mouseout","a0","","7559","null","null"
"2","exp_ml1","179","::1","1","","2019-03-25 16:43:38","2","mouseover","b1","1200 ECU","7559","null","null"
"2","exp_ml1","179","::1","1","","2019-03-25 16:43:38","2","mouseout","b1","","7593","null","null"
"2","exp_ml1","179","::1","1","","2019-03-25 16:43:38","2","submit","submit","submit","16546","null","null"
"3","exp_ml1","179","::1","1","","2019-03-25 16:44:13","3","onload","body","body","26","null","null"
"3","exp_ml1","179","::1","1","","2019-03-25 16:44:13","3","subject","random","0","28","null","null"
"3","exp_ml1","179","::1","1","","2019-03-25 16:44:13","3","order","col","0_1","28","null","null"
"3","exp_ml1","179","::1","1","","2019-03-25 16:44:13","3","order","row","0_1","28","null","null"
"3","exp_ml1","179","::1","1","","2019-03-25 16:44:13","3","events","open_close","0_0","28","null","null"
"3","exp_ml1","179","::1","1","","2019-03-25 16:44:13","3","mouseover","b1","1700 ECU","656","null","null"
"3","exp_ml1","179","::1","1","","2019-03-25 16:44:13","3","mouseout","b1","","1056","null","null"
"3","exp_ml1","179","::1","1","","2019-03-25 16:44:13","3","mouseover","a1","2x evaded amount","1073","null","null"
"3","exp_ml1","179","::1","1","","2019-03-25 16:44:13","3","mouseout","a1","","1673","null","null"
"3","exp_ml1","179","::1","1","","2019-03-25 16:44:13","3","mouseover","a0","10% chance","1673","null","null"
"3","exp_ml1","179","::1","1","","2019-03-25 16:44:13","3","mouseout","a0","","2423","null","null"
"3","exp_ml1","179","::1","1","","2019-03-25 16:44:13","3","mouseover","b0","Tax (40%): 680 ECU ","2423","null","null"
"3","exp_ml1","179","::1","1","","2019-03-25 16:44:13","3","mouseout","b0","","6240","null","null"
"3","exp_ml1","179","::1","1","","2019-03-25 16:44:13","3","mouseover","a0","10% chance","6256","null","null"
"3","exp_ml1","179","::1","1","","2019-03-25 16:44:13","3","mouseout","a0","","6938","null","null"
"3","exp_ml1","179","::1","1","","2019-03-25 16:44:13","3","mouseover","a1","2x evaded amount","6955","null","null"
"3","exp_ml1","179","::1","1","","2019-03-25 16:44:13","3","mouseout","a1","","7839","null","null"
"3","exp_ml1","179","::1","1","","2019-03-25 16:44:13","3","mouseover","a0","10% chance","7839","null","null"
"3","exp_ml1","179","::1","1","","2019-03-25 16:44:13","3","mouseout","a0","","8823","null","null"
"3","exp_ml1","179","::1","1","","2019-03-25 16:44:13","3","mouseover","b1","1700 ECU","8857","null","null"
"3","exp_ml1","179","::1","1","","2019-03-25 16:44:13","3","mouseout","b1","","9621","null","null"
"3","exp_ml1","179","::1","1","","2019-03-25 16:44:13","3","submit","submit","submit","14277","null","null"
"8","exp_ml1","181","::1","5","","2019-03-26 16:13:45","1","onload","body","body","63","null","null"
"8","exp_ml1","181","::1","5","","2019-03-26 16:13:45","1","subject","random","0","67","null","null"
"8","exp_ml1","181","::1","5","","2019-03-26 16:13:45","1","order","col","0_1","67","null","null"
"8","exp_ml1","181","::1","5","","2019-03-26 16:13:45","1","order","row","0_1","67","null","null"
"8","exp_ml1","181","::1","5","","2019-03-26 16:13:45","1","events","open_close","0_0","67","null","null"
"8","exp_ml1","181","::1","5","","2019-03-26 16:13:45","1","mouseover","b1","1900 ECU","554","null","null"
"8","exp_ml1","181","::1","5","","2019-03-26 16:13:45","1","mouseout","b1","","572","null","null"
"8","exp_ml1","181","::1","5","","2019-03-26 16:13:45","1","mouseover","b0","Tax (40%): 760 ECU ","588","null","null"
"8","exp_ml1","181","::1","5","","2019-03-26 16:13:45","1","mouseout","b0","","621","null","null"
"8","exp_ml1","181","::1","5","","2019-03-26 16:13:45","1","mouseover","a0","10% chance","621","null","null"
"8","exp_ml1","181","::1","5","","2019-03-26 16:13:45","1","mouseout","a0","","1738","null","null"
"8","exp_ml1","181","::1","5","","2019-03-26 16:13:45","1","mouseover","a1","3x evaded amount","1738","null","null"
"8","exp_ml1","181","::1","5","","2019-03-26 16:13:45","1","mouseout","a1","","2253","null","null"
"8","exp_ml1","181","::1","5","","2019-03-26 16:13:45","1","mouseover","b1","1900 ECU","2271","null","null"
"8","exp_ml1","181","::1","5","","2019-03-26 16:13:45","1","mouseout","b1","","2371","null","null"
"8","exp_ml1","181","::1","5","","2019-03-26 16:13:45","1","mouseover","a1","3x evaded amount","2388","null","null"
"8","exp_ml1","181","::1","5","","2019-03-26 16:13:45","1","mouseout","a1","","2487","null","null"
"8","exp_ml1","181","::1","5","","2019-03-26 16:13:45","1","mouseover","b1","1900 ECU","2487","null","null"
"8","exp_ml1","181","::1","5","","2019-03-26 16:13:45","1","mouseout","b1","","3153","null","null"
"8","exp_ml1","181","::1","5","","2019-03-26 16:13:45","1","mouseover","b0","Tax (40%): 760 ECU ","3154","null","null"
"8","exp_ml1","181","::1","5","","2019-03-26 16:13:45","1","mouseout","b0","","3954","null","null"
"8","exp_ml1","181","::1","5","","2019-03-26 16:13:45","1","submit","submit","submit","24472","null","null"
"9","exp_ml1","181","::1","5","","2019-03-26 16:14:58","2","onload","body","body","122","null","null"
"9","exp_ml1","181","::1","5","","2019-03-26 16:14:58","2","subject","random","0","124","null","null"
"9","exp_ml1","181","::1","5","","2019-03-26 16:14:58","2","order","col","0_1","124","null","null"
"9","exp_ml1","181","::1","5","","2019-03-26 16:14:58","2","order","row","0_1","124","null","null"
"9","exp_ml1","181","::1","5","","2019-03-26 16:14:58","2","events","open_close","0_0","124","null","null"
"9","exp_ml1","181","::1","5","","2019-03-26 16:14:58","2","mouseover","a0","30% chance","8216","null","null"
"9","exp_ml1","181","::1","5","","2019-03-26 16:14:58","2","mouseout","a0","","8824","null","null"
"9","exp_ml1","181","::1","5","","2019-03-26 16:14:58","2","mouseover","a1","3x evaded amount","8825","null","null"
"9","exp_ml1","181","::1","5","","2019-03-26 16:14:58","2","mouseout","a1","","9207","null","null"
"9","exp_ml1","181","::1","5","","2019-03-26 16:14:58","2","mouseover","b1","1700 ECU","9207","null","null"
"9","exp_ml1","181","::1","5","","2019-03-26 16:14:58","2","mouseout","b1","","9525","null","null"
"9","exp_ml1","181","::1","5","","2019-03-26 16:14:58","2","mouseover","b0","Tax (40%): 680 ECU ","9527","null","null"
"9","exp_ml1","181","::1","5","","2019-03-26 16:14:58","2","mouseout","b0","","10840","null","null"
"9","exp_ml1","181","::1","5","","2019-03-26 16:14:58","2","mouseover","b1","1700 ECU","10841","null","null"
"9","exp_ml1","181","::1","5","","2019-03-26 16:14:58","2","mouseout","b1","","11123","null","null"
"9","exp_ml1","181","::1","5","","2019-03-26 16:14:58","2","mouseover","a1","3x evaded amount","11124","null","null"
"9","exp_ml1","181","::1","5","","2019-03-26 16:14:58","2","mouseout","a1","","11706","null","null"
"9","exp_ml1","181","::1","5","","2019-03-26 16:14:58","2","mouseover","a0","30% chance","11724","null","null"
"9","exp_ml1","181","::1","5","","2019-03-26 16:14:58","2","mouseout","a0","","12373","null","null"
"9","exp_ml1","181","::1","5","","2019-03-26 16:14:58","2","mouseover","b1","1700 ECU","12407","null","null"
"9","exp_ml1","181","::1","5","","2019-03-26 16:14:58","2","mouseout","b1","","13089","null","null"
"9","exp_ml1","181","::1","5","","2019-03-26 16:14:58","2","mouseover","b0","Tax (40%): 680 ECU ","13090","null","null"
"9","exp_ml1","181","::1","5","","2019-03-26 16:14:58","2","mouseout","b0","","14357","null","null"
"9","exp_ml1","181","::1","5","","2019-03-26 16:14:58","2","mouseover","b1","1700 ECU","14606","null","null"
"9","exp_ml1","181","::1","5","","2019-03-26 16:14:58","2","mouseout","b1","","15557","null","null"
"9","exp_ml1","181","::1","5","","2019-03-26 16:14:58","2","mouseover","a1","3x evaded amount","15557","null","null"
"9","exp_ml1","181","::1","5","","2019-03-26 16:14:58","2","mouseout","a1","","16173","null","null"
"9","exp_ml1","181","::1","5","","2019-03-26 16:14:58","2","mouseover","a0","30% chance","16174","null","null"
"9","exp_ml1","181","::1","5","","2019-03-26 16:14:58","2","mouseout","a0","","16757","null","null"
"9","exp_ml1","181","::1","5","","2019-03-26 16:14:58","2","mouseover","b0","Tax (40%): 680 ECU ","16757","null","null"
"9","exp_ml1","181","::1","5","","2019-03-26 16:14:58","2","mouseout","b0","","19557","null","null"
"9","exp_ml1","181","::1","5","","2019-03-26 16:14:58","2","mouseover","b1","1700 ECU","19573","null","null"
"9","exp_ml1","181","::1","5","","2019-03-26 16:14:58","2","mouseout","b1","","19589","null","null"
"9","exp_ml1","181","::1","5","","2019-03-26 16:14:58","2","submit","submit","submit","51275","null","null"
"10","exp_ml1","181","::1","5","","2019-03-26 16:15:58","3","onload","body","body","99","null","null"
"10","exp_ml1","181","::1","5","","2019-03-26 16:15:58","3","subject","random","0","101","null","null"
"10","exp_ml1","181","::1","5","","2019-03-26 16:15:58","3","order","col","0_1","102","null","null"
"10","exp_ml1","181","::1","5","","2019-03-26 16:15:58","3","order","row","0_1","102","null","null"
"10","exp_ml1","181","::1","5","","2019-03-26 16:15:58","3","events","open_close","0_0","102","null","null"
"10","exp_ml1","181","::1","5","","2019-03-26 16:15:58","3","mouseover","b1","1700 ECU","2207","null","null"
"10","exp_ml1","181","::1","5","","2019-03-26 16:15:58","3","mouseout","b1","","2240","null","null"
"10","exp_ml1","181","::1","5","","2019-03-26 16:15:58","3","mouseover","a1","2x evaded amount","2240","null","null"
"10","exp_ml1","181","::1","5","","2019-03-26 16:15:58","3","mouseout","a1","","3707","null","null"
"10","exp_ml1","181","::1","5","","2019-03-26 16:15:58","3","mouseover","a0","30% chance","3708","null","null"
"10","exp_ml1","181","::1","5","","2019-03-26 16:15:58","3","mouseout","a0","","4158","null","null"
"10","exp_ml1","181","::1","5","","2019-03-26 16:15:58","3","mouseover","b0","Tax (40%): 680 ECU ","4174","null","null"
"10","exp_ml1","181","::1","5","","2019-03-26 16:15:58","3","mouseout","b0","","6140","null","null"
"10","exp_ml1","181","::1","5","","2019-03-26 16:15:58","3","mouseover","b1","1700 ECU","6158","null","null"
"10","exp_ml1","181","::1","5","","2019-03-26 16:15:58","3","mouseout","b1","","7056","null","null"
"10","exp_ml1","181","::1","5","","2019-03-26 16:15:58","3","mouseover","a0","30% chance","7056","null","null"
"10","exp_ml1","181","::1","5","","2019-03-26 16:15:58","3","mouseout","a0","","7673","null","null"
"10","exp_ml1","181","::1","5","","2019-03-26 16:15:58","3","mouseover","a1","2x evaded amount","7674","null","null"
"10","exp_ml1","181","::1","5","","2019-03-26 16:15:58","3","mouseout","a1","","17191","null","null"
"10","exp_ml1","181","::1","5","","2019-03-26 16:15:58","3","mouseover","a0","30% chance","17192","null","null"
"10","exp_ml1","181","::1","5","","2019-03-26 16:15:58","3","mouseout","a0","","17906","null","null"
"10","exp_ml1","181","::1","5","","2019-03-26 16:15:58","3","mouseover","b0","Tax (40%): 680 ECU ","17907","null","null"
"10","exp_ml1","181","::1","5","","2019-03-26 16:15:58","3","mouseout","b0","","17956","null","null"
"10","exp_ml1","181","::1","5","","2019-03-26 16:15:58","3","mouseover","b0","Tax (40%): 680 ECU ","19440","null","null"
"10","exp_ml1","181","::1","5","","2019-03-26 16:15:58","3","mouseout","b0","","20507","null","null"
"10","exp_ml1","181","::1","5","","2019-03-26 16:15:58","3","mouseover","a0","30% chance","20507","null","null"
"10","exp_ml1","181","::1","5","","2019-03-26 16:15:58","3","mouseout","a0","","21057","null","null"
"10","exp_ml1","181","::1","5","","2019-03-26 16:15:58","3","mouseover","a1","2x evaded amount","21057","null","null"
"10","exp_ml1","181","::1","5","","2019-03-26 16:15:58","3","mouseout","a1","","21574","null","null"
"10","exp_ml1","181","::1","5","","2019-03-26 16:15:58","3","mouseover","b1","1700 ECU","21574","null","null"
"10","exp_ml1","181","::1","5","","2019-03-26 16:15:58","3","mouseout","b1","","22239","null","null"
"10","exp_ml1","181","::1","5","","2019-03-26 16:15:58","3","mouseover","b0","Tax (40%): 680 ECU ","22241","null","null"
"10","exp_ml1","181","::1","5","","2019-03-26 16:15:58","3","mouseout","b0","","24906","null","null"
"10","exp_ml1","181","::1","5","","2019-03-26 16:15:58","3","mouseover","a0","30% chance","24941","null","null"
"10","exp_ml1","181","::1","5","","2019-03-26 16:15:58","3","mouseout","a0","","26891","null","null"
"10","exp_ml1","181","::1","5","","2019-03-26 16:15:58","3","mouseover","a1","2x evaded amount","26957","null","null"
"10","exp_ml1","181","::1","5","","2019-03-26 16:15:58","3","mouseout","a1","","27572","null","null"
"10","exp_ml1","181","::1","5","","2019-03-26 16:15:58","3","mouseover","b1","1700 ECU","27573","null","null"
"10","exp_ml1","181","::1","5","","2019-03-26 16:15:58","3","mouseout","b1","","27640","null","null"
"10","exp_ml1","181","::1","5","","2019-03-26 16:15:58","3","mouseover","b1","1700 ECU","31474","null","null"
"10","exp_ml1","181","::1","5","","2019-03-26 16:15:58","3","mouseout","b1","","31524","null","null"
"10","exp_ml1","181","::1","5","","2019-03-26 16:15:58","3","mouseover","b0","Tax (40%): 680 ECU ","31524","null","null"
"10","exp_ml1","181","::1","5","","2019-03-26 16:15:58","3","mouseout","b0","","31556","null","null"
"10","exp_ml1","181","::1","5","","2019-03-26 16:15:58","3","mouseover","a0","30% chance","31591","null","null"
"10","exp_ml1","181","::1","5","","2019-03-26 16:15:58","3","mouseout","a0","","31958","null","null"
"10","exp_ml1","181","::1","5","","2019-03-26 16:15:58","3","mouseover","b0","Tax (40%): 680 ECU ","31974","null","null"
"10","exp_ml1","181","::1","5","","2019-03-26 16:15:58","3","mouseout","b0","","32790","null","null"
"10","exp_ml1","181","::1","5","","2019-03-26 16:15:58","3","mouseover","b1","1700 ECU","32790","null","null"
"10","exp_ml1","181","::1","5","","2019-03-26 16:15:58","3","mouseout","b1","","32823","null","null"
"10","exp_ml1","181","::1","5","","2019-03-26 16:15:58","3","submit","submit","submit","38814","null","null"
"11","exp_ml1","181","::1","5","","2019-03-26 16:16:35","4","onload","body","body","104","null","null"
"11","exp_ml1","181","::1","5","","2019-03-26 16:16:35","4","subject","random","0","106","null","null"
"11","exp_ml1","181","::1","5","","2019-03-26 16:16:35","4","order","col","0_1","106","null","null"
"11","exp_ml1","181","::1","5","","2019-03-26 16:16:35","4","order","row","0_1","106","null","null"
"11","exp_ml1","181","::1","5","","2019-03-26 16:16:35","4","events","open_close","0_0","106","null","null"
"11","exp_ml1","181","::1","5","","2019-03-26 16:16:35","4","mouseover","b0","Tax (20%): 360 ECU ","657","null","null"
"11","exp_ml1","181","::1","5","","2019-03-26 16:16:35","4","mouseout","b0","","1623","null","null"
"11","exp_ml1","181","::1","5","","2019-03-26 16:16:35","4","mouseover","a0","10% chance","1623","null","null"
"11","exp_ml1","181","::1","5","","2019-03-26 16:16:35","4","mouseout","a0","","2274","null","null"
"11","exp_ml1","181","::1","5","","2019-03-26 16:16:35","4","mouseover","a1","3x evaded amount","2274","null","null"
"11","exp_ml1","181","::1","5","","2019-03-26 16:16:35","4","mouseout","a1","","2840","null","null"
"11","exp_ml1","181","::1","5","","2019-03-26 16:16:35","4","mouseover","b1","1800 ECU","2841","null","null"
"11","exp_ml1","181","::1","5","","2019-03-26 16:16:35","4","mouseout","b1","","4407","null","null"
"11","exp_ml1","181","::1","5","","2019-03-26 16:16:35","4","mouseover","b0","Tax (20%): 360 ECU ","4423","null","null"
"11","exp_ml1","181","::1","5","","2019-03-26 16:16:35","4","mouseout","b0","","6606","null","null"
"11","exp_ml1","181","::1","5","","2019-03-26 16:16:35","4","submit","submit","submit","15791","null","null"
"12","exp_ml1","181","::1","5","","2019-03-26 16:17:14","5","onload","body","body","61","null","null"
"12","exp_ml1","181","::1","5","","2019-03-26 16:17:14","5","subject","random","0","63","null","null"
"12","exp_ml1","181","::1","5","","2019-03-26 16:17:14","5","order","col","0_1","63","null","null"
"12","exp_ml1","181","::1","5","","2019-03-26 16:17:14","5","order","row","0_1","64","null","null"
"12","exp_ml1","181","::1","5","","2019-03-26 16:17:14","5","events","open_close","0_0","64","null","null"
"12","exp_ml1","181","::1","5","","2019-03-26 16:17:14","5","mouseover","b0","Tax (40%): 560 ECU ","1015","null","null"
"12","exp_ml1","181","::1","5","","2019-03-26 16:17:14","5","mouseout","b0","","1498","null","null"
"12","exp_ml1","181","::1","5","","2019-03-26 16:17:14","5","mouseover","a0","20% chance","1514","null","null"
"12","exp_ml1","181","::1","5","","2019-03-26 16:17:14","5","mouseout","a0","","2047","null","null"
"12","exp_ml1","181","::1","5","","2019-03-26 16:17:14","5","mouseover","a1","1x evaded amount","2064","null","null"
"12","exp_ml1","181","::1","5","","2019-03-26 16:17:14","5","mouseout","a1","","2615","null","null"
"12","exp_ml1","181","::1","5","","2019-03-26 16:17:14","5","mouseover","b1","1400 ECU","2615","null","null"
"12","exp_ml1","181","::1","5","","2019-03-26 16:17:14","5","mouseout","b1","","3098","null","null"
"12","exp_ml1","181","::1","5","","2019-03-26 16:17:14","5","mouseover","b1","1400 ECU","3230","null","null"
"12","exp_ml1","181","::1","5","","2019-03-26 16:17:14","5","mouseout","b1","","3731","null","null"
"12","exp_ml1","181","::1","5","","2019-03-26 16:17:14","5","mouseover","a1","1x evaded amount","3748","null","null"
"12","exp_ml1","181","::1","5","","2019-03-26 16:17:14","5","mouseout","a1","","4363","null","null"
"12","exp_ml1","181","::1","5","","2019-03-26 16:17:14","5","mouseover","a0","20% chance","4364","null","null"
"12","exp_ml1","181","::1","5","","2019-03-26 16:17:14","5","mouseout","a0","","4930","null","null"
"12","exp_ml1","181","::1","5","","2019-03-26 16:17:14","5","mouseover","b0","Tax (40%): 560 ECU ","4930","null","null"
"12","exp_ml1","181","::1","5","","2019-03-26 16:17:14","5","mouseout","b0","","5581","null","null"
"12","exp_ml1","181","::1","5","","2019-03-26 16:17:14","5","mouseover","b1","1400 ECU","5581","null","null"
"12","exp_ml1","181","::1","5","","2019-03-26 16:17:14","5","mouseout","b1","","5630","null","null"
"12","exp_ml1","181","::1","5","","2019-03-26 16:17:14","5","submit","submit","submit","17397","null","null"
"13","exp_ml1","181","::1","5","","2019-03-26 16:19:34","6","onload","body","body","101","null","null"
"13","exp_ml1","181","::1","5","","2019-03-26 16:19:34","6","subject","random","0","104","null","null"
"13","exp_ml1","181","::1","5","","2019-03-26 16:19:34","6","order","col","0_1","104","null","null"
"13","exp_ml1","181","::1","5","","2019-03-26 16:19:34","6","order","row","0_1","104","null","null"
"13","exp_ml1","181","::1","5","","2019-03-26 16:19:34","6","events","open_close","0_0","104","null","null"
"13","exp_ml1","181","::1","5","","2019-03-26 16:19:34","6","mouseover","b1","1800 ECU","724","null","null"
"13","exp_ml1","181","::1","5","","2019-03-26 16:19:34","6","mouseout","b1","","790","null","null"
"13","exp_ml1","181","::1","5","","2019-03-26 16:19:34","6","mouseover","b1","1800 ECU","973","null","null"
"13","exp_ml1","181","::1","5","","2019-03-26 16:19:34","6","mouseout","b1","","1523","null","null"
"13","exp_ml1","181","::1","5","","2019-03-26 16:19:34","6","mouseover","a1","3x evaded amount","1524","null","null"
"13","exp_ml1","181","::1","5","","2019-03-26 16:19:34","6","mouseout","a1","","2058","null","null"
"13","exp_ml1","181","::1","5","","2019-03-26 16:19:34","6","mouseover","a0","30% chance","2058","null","null"
"13","exp_ml1","181","::1","5","","2019-03-26 16:19:34","6","mouseout","a0","","4423","null","null"
"13","exp_ml1","181","::1","5","","2019-03-26 16:19:34","6","mouseover","b0","Tax (20%): 360 ECU ","4424","null","null"
"13","exp_ml1","181","::1","5","","2019-03-26 16:19:34","6","mouseout","b0","","6307","null","null"
"13","exp_ml1","181","::1","5","","2019-03-26 16:19:34","6","mouseover","b1","1800 ECU","6308","null","null"
"13","exp_ml1","181","::1","5","","2019-03-26 16:19:34","6","mouseout","b1","","6324","null","null"
"13","exp_ml1","181","::1","5","","2019-03-26 16:19:34","6","mouseover","a1","3x evaded amount","6325","null","null"
"13","exp_ml1","181","::1","5","","2019-03-26 16:19:34","6","mouseout","a1","","6357","null","null"
"13","exp_ml1","181","::1","5","","2019-03-26 16:19:34","6","mouseover","a0","30% chance","98057","null","null"
"13","exp_ml1","181","::1","5","","2019-03-26 16:19:34","6","mouseout","a0","","98706","null","null"
"13","exp_ml1","181","::1","5","","2019-03-26 16:19:34","6","mouseover","a1","3x evaded amount","98707","null","null"
"13","exp_ml1","181","::1","5","","2019-03-26 16:19:34","6","mouseout","a1","","99174","null","null"
"13","exp_ml1","181","::1","5","","2019-03-26 16:19:34","6","mouseover","b1","1800 ECU","99175","null","null"
"13","exp_ml1","181","::1","5","","2019-03-26 16:19:34","6","mouseout","b1","","99540","null","null"
"13","exp_ml1","181","::1","5","","2019-03-26 16:19:34","6","mouseover","b0","Tax (20%): 360 ECU ","99541","null","null"
"13","exp_ml1","181","::1","5","","2019-03-26 16:19:34","6","mouseout","b0","","100924","null","null"
"13","exp_ml1","181","::1","5","","2019-03-26 16:19:34","6","mouseover","b1","1800 ECU","100940","null","null"
"13","exp_ml1","181","::1","5","","2019-03-26 16:19:34","6","mouseout","b1","","102306","null","null"
"13","exp_ml1","181","::1","5","","2019-03-26 16:19:34","6","mouseover","a1","3x evaded amount","102323","null","null"
"13","exp_ml1","181","::1","5","","2019-03-26 16:19:34","6","mouseout","a1","","102973","null","null"
"13","exp_ml1","181","::1","5","","2019-03-26 16:19:34","6","mouseover","a0","30% chance","103022","null","null"
"13","exp_ml1","181","::1","5","","2019-03-26 16:19:34","6","mouseout","a0","","103557","null","null"
"13","exp_ml1","181","::1","5","","2019-03-26 16:19:34","6","mouseover","b0","Tax (20%): 360 ECU ","103557","null","null"
"13","exp_ml1","181","::1","5","","2019-03-26 16:19:34","6","mouseout","b0","","105123","null","null"
"13","exp_ml1","181","::1","5","","2019-03-26 16:19:34","6","mouseover","b1","1800 ECU","105123","null","null"
"13","exp_ml1","181","::1","5","","2019-03-26 16:19:34","6","mouseout","b1","","105422","null","null"
"13","exp_ml1","181","::1","5","","2019-03-26 16:19:34","6","submit","submit","submit","117730","null","null"
"14","exp_ml1","181","::1","5","","2019-03-26 16:20:05","7","onload","body","body","55","null","null"
"14","exp_ml1","181","::1","5","","2019-03-26 16:20:05","7","subject","random","0","57","null","null"
"14","exp_ml1","181","::1","5","","2019-03-26 16:20:05","7","order","col","0_1","57","null","null"
"14","exp_ml1","181","::1","5","","2019-03-26 16:20:05","7","order","row","0_1","57","null","null"
"14","exp_ml1","181","::1","5","","2019-03-26 16:20:05","7","events","open_close","0_0","57","null","null"
"14","exp_ml1","181","::1","5","","2019-03-26 16:20:05","7","mouseover","b1","1600 ECU","763","null","null"
"14","exp_ml1","181","::1","5","","2019-03-26 16:20:05","7","mouseout","b1","","1363","null","null"
"14","exp_ml1","181","::1","5","","2019-03-26 16:20:05","7","mouseover","a1","2x evaded amount","1380","null","null"
"14","exp_ml1","181","::1","5","","2019-03-26 16:20:05","7","mouseout","a1","","1897","null","null"
"14","exp_ml1","181","::1","5","","2019-03-26 16:20:05","7","mouseover","a0","10% chance","1897","null","null"
"14","exp_ml1","181","::1","5","","2019-03-26 16:20:05","7","mouseout","a0","","2462","null","null"
"14","exp_ml1","181","::1","5","","2019-03-26 16:20:05","7","mouseover","b0","Tax (20%): 320 ECU ","2463","null","null"
"14","exp_ml1","181","::1","5","","2019-03-26 16:20:05","7","mouseout","b0","","4313","null","null"
"14","exp_ml1","181","::1","5","","2019-03-26 16:20:05","7","mouseover","a0","10% chance","4329","null","null"
"14","exp_ml1","181","::1","5","","2019-03-26 16:20:05","7","mouseout","a0","","4762","null","null"
"14","exp_ml1","181","::1","5","","2019-03-26 16:20:05","7","mouseover","b0","Tax (20%): 320 ECU ","4779","null","null"
"14","exp_ml1","181","::1","5","","2019-03-26 16:20:05","7","mouseout","b0","","4796","null","null"
"14","exp_ml1","181","::1","5","","2019-03-26 16:20:05","7","mouseover","b1","1600 ECU","4796","null","null"
"14","exp_ml1","181","::1","5","","2019-03-26 16:20:05","7","mouseout","b1","","4896","null","null"
"14","exp_ml1","181","::1","5","","2019-03-26 16:20:05","7","submit","submit","submit","10565","null","null"
"15","exp_ml1","181","::1","5","","2019-03-26 16:22:37","8","onload","body","body","52","null","null"
"15","exp_ml1","181","::1","5","","2019-03-26 16:22:37","8","subject","random","0","55","null","null"
"15","exp_ml1","181","::1","5","","2019-03-26 16:22:37","8","order","col","0_1","55","null","null"
"15","exp_ml1","181","::1","5","","2019-03-26 16:22:37","8","order","row","0_1","55","null","null"
"15","exp_ml1","181","::1","5","","2019-03-26 16:22:37","8","events","open_close","0_0","55","null","null"
"15","exp_ml1","181","::1","5","","2019-03-26 16:22:37","8","mouseover","b1","1700 ECU","787","null","null"
"15","exp_ml1","181","::1","5","","2019-03-26 16:22:37","8","mouseout","b1","","1720","null","null"
"15","exp_ml1","181","::1","5","","2019-03-26 16:22:37","8","mouseover","b0","Tax (40%): 680 ECU ","1721","null","null"
"15","exp_ml1","181","::1","5","","2019-03-26 16:22:37","8","mouseout","b0","","2587","null","null"
"15","exp_ml1","181","::1","5","","2019-03-26 16:22:37","8","mouseover","a0","30% chance","2837","null","null"
"15","exp_ml1","181","::1","5","","2019-03-26 16:22:37","8","mouseout","a0","","3004","null","null"
"15","exp_ml1","181","::1","5","","2019-03-26 16:22:37","8","mouseover","a1","1x evaded amount","3005","null","null"
"15","exp_ml1","181","::1","5","","2019-03-26 16:22:37","8","mouseout","a1","","3038","null","null"
"15","exp_ml1","181","::1","5","","2019-03-26 16:22:37","8","mouseover","b1","1700 ECU","3038","null","null"
"15","exp_ml1","181","::1","5","","2019-03-26 16:22:37","8","mouseout","b1","","3103","null","null"
"15","exp_ml1","181","::1","5","","2019-03-26 16:22:37","8","onload","body","body","127","null","null"
"15","exp_ml1","181","::1","5","","2019-03-26 16:22:37","8","subject","random","0","130","null","null"
"15","exp_ml1","181","::1","5","","2019-03-26 16:22:37","8","order","col","0_1","130","null","null"
"15","exp_ml1","181","::1","5","","2019-03-26 16:22:37","8","order","row","0_1","130","null","null"
"15","exp_ml1","181","::1","5","","2019-03-26 16:22:37","8","events","open_close","0_0","130","null","null"
"15","exp_ml1","181","::1","5","","2019-03-26 16:22:37","8","mouseover","b0","Tax (40%): 680 ECU ","2031","null","null"
"15","exp_ml1","181","::1","5","","2019-03-26 16:22:37","8","mouseout","b0","","2999","null","null"
"15","exp_ml1","181","::1","5","","2019-03-26 16:22:37","8","mouseover","b1","1700 ECU","2999","null","null"
"15","exp_ml1","181","::1","5","","2019-03-26 16:22:37","8","mouseout","b1","","3015","null","null"
"15","exp_ml1","181","::1","5","","2019-03-26 16:22:37","8","mouseover","b1","1700 ECU","13481","null","null"
"15","exp_ml1","181","::1","5","","2019-03-26 16:22:37","8","mouseout","b1","","13581","null","null"
"15","exp_ml1","181","::1","5","","2019-03-26 16:22:37","8","mouseover","b0","Tax (40%): 680 ECU ","13582","null","null"
"15","exp_ml1","181","::1","5","","2019-03-26 16:22:37","8","mouseout","b0","","14698","null","null"
"15","exp_ml1","181","::1","5","","2019-03-26 16:22:37","8","mouseover","b1","1700 ECU","14715","null","null"
"15","exp_ml1","181","::1","5","","2019-03-26 16:22:37","8","mouseout","b1","","16698","null","null"
"15","exp_ml1","181","::1","5","","2019-03-26 16:22:37","8","mouseover","b1","1700 ECU","20449","null","null"
"15","exp_ml1","181","::1","5","","2019-03-26 16:22:37","8","mouseout","b1","","20548","null","null"
"15","exp_ml1","181","::1","5","","2019-03-26 16:22:37","8","mouseover","a1","1x evaded amount","20566","null","null"
"15","exp_ml1","181","::1","5","","2019-03-26 16:22:37","8","mouseout","a1","","20582","null","null"
"15","exp_ml1","181","::1","5","","2019-03-26 16:22:37","8","mouseover","a0","30% chance","20583","null","null"
"15","exp_ml1","181","::1","5","","2019-03-26 16:22:37","8","mouseout","a0","","21165","null","null"
"15","exp_ml1","181","::1","5","","2019-03-26 16:22:37","8","mouseover","a1","1x evaded amount","21198","null","null"
"15","exp_ml1","181","::1","5","","2019-03-26 16:22:37","8","mouseout","a1","","21831","null","null"
"15","exp_ml1","181","::1","5","","2019-03-26 16:22:37","8","mouseover","b1","1700 ECU","21832","null","null"
"15","exp_ml1","181","::1","5","","2019-03-26 16:22:37","8","mouseout","b1","","22382","null","null"
"15","exp_ml1","181","::1","5","","2019-03-26 16:22:37","8","mouseover","a1","1x evaded amount","22382","null","null"
"15","exp_ml1","181","::1","5","","2019-03-26 16:22:37","8","mouseout","a1","","22465","null","null"
"15","exp_ml1","181","::1","5","","2019-03-26 16:22:37","8","mouseover","a0","30% chance","22465","null","null"
"15","exp_ml1","181","::1","5","","2019-03-26 16:22:37","8","mouseout","a0","","22665","null","null"
"15","exp_ml1","181","::1","5","","2019-03-26 16:22:37","8","mouseover","b1","1700 ECU","22666","null","null"
"15","exp_ml1","181","::1","5","","2019-03-26 16:22:37","8","mouseout","b1","","22880","null","null"
"15","exp_ml1","181","::1","5","","2019-03-26 16:22:37","8","submit","submit","submit","28601","null","null"
"16","exp_ml1","181","::1","5","","2019-03-26 16:23:09","9","onload","body","body","60","null","null"
"16","exp_ml1","181","::1","5","","2019-03-26 16:23:09","9","subject","random","0","62","null","null"
"16","exp_ml1","181","::1","5","","2019-03-26 16:23:09","9","order","col","0_1","62","null","null"
"16","exp_ml1","181","::1","5","","2019-03-26 16:23:09","9","order","row","0_1","62","null","null"
"16","exp_ml1","181","::1","5","","2019-03-26 16:23:09","9","events","open_close","0_0","62","null","null"
"16","exp_ml1","181","::1","5","","2019-03-26 16:23:09","9","mouseover","b1","1600 ECU","73","null","null"
"16","exp_ml1","181","::1","5","","2019-03-26 16:23:09","9","mouseout","b1","","1133","null","null"
"16","exp_ml1","181","::1","5","","2019-03-26 16:23:09","9","mouseover","a1","3x evaded amount","1150","null","null"
"16","exp_ml1","181","::1","5","","2019-03-26 16:23:09","9","mouseout","a1","","2433","null","null"
"16","exp_ml1","181","::1","5","","2019-03-26 16:23:09","9","mouseover","a0","20% chance","2550","null","null"
"16","exp_ml1","181","::1","5","","2019-03-26 16:23:09","9","mouseout","a0","","3067","null","null"
"16","exp_ml1","181","::1","5","","2019-03-26 16:23:09","9","mouseover","b0","Tax (20%): 320 ECU ","3084","null","null"
"16","exp_ml1","181","::1","5","","2019-03-26 16:23:09","9","mouseout","b0","","4183","null","null"
"16","exp_ml1","181","::1","5","","2019-03-26 16:23:09","9","mouseover","b1","1600 ECU","4217","null","null"
"16","exp_ml1","181","::1","5","","2019-03-26 16:23:09","9","mouseout","b1","","4267","null","null"
"16","exp_ml1","181","::1","5","","2019-03-26 16:23:09","9","submit","submit","submit","10335","null","null"
"17","exp_ml1","181","::1","5","","2019-03-26 16:23:56","10","onload","body","body","64","null","null"
"17","exp_ml1","181","::1","5","","2019-03-26 16:23:56","10","subject","random","0","67","null","null"
"17","exp_ml1","181","::1","5","","2019-03-26 16:23:56","10","order","col","0_1","67","null","null"
"17","exp_ml1","181","::1","5","","2019-03-26 16:23:56","10","order","row","0_1","67","null","null"
"17","exp_ml1","181","::1","5","","2019-03-26 16:23:56","10","events","open_close","0_0","67","null","null"
"17","exp_ml1","181","::1","5","","2019-03-26 16:23:56","10","mouseover","b1","1600 ECU","501","null","null"
"17","exp_ml1","181","::1","5","","2019-03-26 16:23:56","10","mouseout","b1","","551","null","null"
"17","exp_ml1","181","::1","5","","2019-03-26 16:23:56","10","mouseover","b0","Tax (20%): 320 ECU ","567","null","null"
"17","exp_ml1","181","::1","5","","2019-03-26 16:23:56","10","mouseout","b0","","1600","null","null"
"17","exp_ml1","181","::1","5","","2019-03-26 16:23:56","10","mouseover","a0","30% chance","1634","null","null"
"17","exp_ml1","181","::1","5","","2019-03-26 16:23:56","10","mouseout","a0","","2368","null","null"
"17","exp_ml1","181","::1","5","","2019-03-26 16:23:56","10","mouseover","a1","2x evaded amount","2369","null","null"
"17","exp_ml1","181","::1","5","","2019-03-26 16:23:56","10","mouseout","a1","","2950","null","null"
"17","exp_ml1","181","::1","5","","2019-03-26 16:23:56","10","mouseover","b1","1600 ECU","2950","null","null"
"17","exp_ml1","181","::1","5","","2019-03-26 16:23:56","10","mouseout","b1","","3684","null","null"
"17","exp_ml1","181","::1","5","","2019-03-26 16:23:56","10","mouseover","b0","Tax (20%): 320 ECU ","3685","null","null"
"17","exp_ml1","181","::1","5","","2019-03-26 16:23:56","10","mouseout","b0","","15900","null","null"
"17","exp_ml1","181","::1","5","","2019-03-26 16:23:56","10","mouseover","b1","1600 ECU","17001","null","null"
"17","exp_ml1","181","::1","5","","2019-03-26 16:23:56","10","mouseout","b1","","17283","null","null"
"17","exp_ml1","181","::1","5","","2019-03-26 16:23:56","10","mouseover","a1","2x evaded amount","17283","null","null"
"17","exp_ml1","181","::1","5","","2019-03-26 16:23:56","10","mouseout","a1","","17733","null","null"
"17","exp_ml1","181","::1","5","","2019-03-26 16:23:56","10","mouseover","a0","30% chance","17751","null","null"
"17","exp_ml1","181","::1","5","","2019-03-26 16:23:56","10","mouseout","a0","","18234","null","null"
"17","exp_ml1","181","::1","5","","2019-03-26 16:23:56","10","mouseover","b0","Tax (20%): 320 ECU ","18236","null","null"
"17","exp_ml1","181","::1","5","","2019-03-26 16:23:56","10","mouseout","b0","","18250","null","null"
"17","exp_ml1","181","::1","5","","2019-03-26 16:23:56","10","mouseover","b1","1600 ECU","18250","null","null"
"17","exp_ml1","181","::1","5","","2019-03-26 16:23:56","10","mouseout","b1","","18718","null","null"
"17","exp_ml1","181","::1","5","","2019-03-26 16:23:56","10","submit","submit","submit","26219","null","null"
"18","exp_ml1","181","::1","5","","2019-03-26 16:24:33","11","onload","body","body","55","null","null"
"18","exp_ml1","181","::1","5","","2019-03-26 16:24:33","11","subject","random","0","58","null","null"
"18","exp_ml1","181","::1","5","","2019-03-26 16:24:33","11","order","col","0_1","58","null","null"
"18","exp_ml1","181","::1","5","","2019-03-26 16:24:33","11","order","row","0_1","58","null","null"
"18","exp_ml1","181","::1","5","","2019-03-26 16:24:33","11","events","open_close","0_0","58","null","null"
"18","exp_ml1","181","::1","5","","2019-03-26 16:24:33","11","mouseover","a1","2x evaded amount","65","null","null"
"18","exp_ml1","181","::1","5","","2019-03-26 16:24:33","11","mouseout","a1","","998","null","null"
"18","exp_ml1","181","::1","5","","2019-03-26 16:24:33","11","mouseover","a0","20% chance","999","null","null"
"18","exp_ml1","181","::1","5","","2019-03-26 16:24:33","11","mouseout","a0","","2580","null","null"
"18","exp_ml1","181","::1","5","","2019-03-26 16:24:33","11","mouseover","b0","Tax (40%): 600 ECU ","2581","null","null"
"18","exp_ml1","181","::1","5","","2019-03-26 16:24:33","11","mouseout","b0","","4298","null","null"
"18","exp_ml1","181","::1","5","","2019-03-26 16:24:33","11","mouseover","a0","20% chance","4313","null","null"
"18","exp_ml1","181","::1","5","","2019-03-26 16:24:33","11","mouseout","a0","","5230","null","null"
"18","exp_ml1","181","::1","5","","2019-03-26 16:24:33","11","mouseover","a1","2x evaded amount","5232","null","null"
"18","exp_ml1","181","::1","5","","2019-03-26 16:24:33","11","mouseout","a1","","5848","null","null"
"18","exp_ml1","181","::1","5","","2019-03-26 16:24:33","11","mouseover","b1","1500 ECU","5848","null","null"
"18","exp_ml1","181","::1","5","","2019-03-26 16:24:33","11","mouseout","b1","","6548","null","null"
"18","exp_ml1","181","::1","5","","2019-03-26 16:24:33","11","mouseover","b0","Tax (40%): 600 ECU ","6548","null","null"
"18","exp_ml1","181","::1","5","","2019-03-26 16:24:33","11","mouseout","b0","","9314","null","null"
"18","exp_ml1","181","::1","5","","2019-03-26 16:24:33","11","mouseover","b1","1500 ECU","9314","null","null"
"18","exp_ml1","181","::1","5","","2019-03-26 16:24:33","11","mouseout","b1","","9997","null","null"
"18","exp_ml1","181","::1","5","","2019-03-26 16:24:33","11","submit","submit","submit","15645","null","null"
"19","exp_ml1","181","::1","5","","2019-03-26 16:25:05","12","onload","body","body","133","null","null"
"19","exp_ml1","181","::1","5","","2019-03-26 16:25:05","12","subject","random","0","135","null","null"
"19","exp_ml1","181","::1","5","","2019-03-26 16:25:05","12","order","col","0_1","135","null","null"
"19","exp_ml1","181","::1","5","","2019-03-26 16:25:05","12","order","row","0_1","135","null","null"
"19","exp_ml1","181","::1","5","","2019-03-26 16:25:05","12","events","open_close","0_0","135","null","null"
"19","exp_ml1","181","::1","5","","2019-03-26 16:25:05","12","mouseover","b1","2000 ECU","542","null","null"
"19","exp_ml1","181","::1","5","","2019-03-26 16:25:05","12","mouseout","b1","","1325","null","null"
"19","exp_ml1","181","::1","5","","2019-03-26 16:25:05","12","mouseover","a1","1x evaded amount","1325","null","null"
"19","exp_ml1","181","::1","5","","2019-03-26 16:25:05","12","mouseout","a1","","1859","null","null"
"19","exp_ml1","181","::1","5","","2019-03-26 16:25:05","12","mouseover","a0","30% chance","1859","null","null"
"19","exp_ml1","181","::1","5","","2019-03-26 16:25:05","12","mouseout","a0","","2342","null","null"
"19","exp_ml1","181","::1","5","","2019-03-26 16:25:05","12","mouseover","b0","Tax (20%): 400 ECU ","2343","null","null"
"19","exp_ml1","181","::1","5","","2019-03-26 16:25:05","12","mouseout","b0","","5192","null","null"
"19","exp_ml1","181","::1","5","","2019-03-26 16:25:05","12","mouseover","b1","2000 ECU","5209","null","null"
"19","exp_ml1","181","::1","5","","2019-03-26 16:25:05","12","mouseout","b1","","5242","null","null"
"19","exp_ml1","181","::1","5","","2019-03-26 16:25:05","12","submit","submit","submit","10629","null","null"
"20","exp_ml1","181","::1","5","","2019-03-26 16:25:50","13","onload","body","body","67","null","null"
"20","exp_ml1","181","::1","5","","2019-03-26 16:25:50","13","subject","random","0","71","null","null"
"20","exp_ml1","181","::1","5","","2019-03-26 16:25:50","13","order","col","0_1","71","null","null"
"20","exp_ml1","181","::1","5","","2019-03-26 16:25:50","13","order","row","0_1","71","null","null"
"20","exp_ml1","181","::1","5","","2019-03-26 16:25:50","13","events","open_close","0_0","71","null","null"
"20","exp_ml1","181","::1","5","","2019-03-26 16:25:50","13","mouseover","b1","1800 ECU","858","null","null"
"20","exp_ml1","181","::1","5","","2019-03-26 16:25:50","13","mouseout","b1","","1208","null","null"
"20","exp_ml1","181","::1","5","","2019-03-26 16:25:50","13","mouseover","a1","3x evaded amount","1223","null","null"
"20","exp_ml1","181","::1","5","","2019-03-26 16:25:50","13","mouseout","a1","","1606","null","null"
"20","exp_ml1","181","::1","5","","2019-03-26 16:25:50","13","mouseover","a0","20% chance","1607","null","null"
"20","exp_ml1","181","::1","5","","2019-03-26 16:25:50","13","mouseout","a0","","2689","null","null"
"20","exp_ml1","181","::1","5","","2019-03-26 16:25:50","13","mouseover","b0","Tax (40%): 720 ECU ","2723","null","null"
"20","exp_ml1","181","::1","5","","2019-03-26 16:25:50","13","mouseout","b0","","3940","null","null"
"20","exp_ml1","181","::1","5","","2019-03-26 16:25:50","13","mouseover","a0","20% chance","3956","null","null"
"20","exp_ml1","181","::1","5","","2019-03-26 16:25:50","13","mouseout","a0","","4591","null","null"
"20","exp_ml1","181","::1","5","","2019-03-26 16:25:50","13","mouseover","a1","3x evaded amount","4591","null","null"
"20","exp_ml1","181","::1","5","","2019-03-26 16:25:50","13","mouseout","a1","","4974","null","null"
"20","exp_ml1","181","::1","5","","2019-03-26 16:25:50","13","mouseover","b0","Tax (40%): 720 ECU ","4990","null","null"
"20","exp_ml1","181","::1","5","","2019-03-26 16:25:50","13","mouseout","b0","","5340","null","null"
"20","exp_ml1","181","::1","5","","2019-03-26 16:25:50","13","mouseover","b1","1800 ECU","5357","null","null"
"20","exp_ml1","181","::1","5","","2019-03-26 16:25:50","13","mouseout","b1","","5374","null","null"
"20","exp_ml1","181","::1","5","","2019-03-26 16:25:50","13","submit","submit","submit","23377","null","null"
"21","exp_ml1","181","::1","5","","2019-03-26 16:26:32","14","onload","body","body","60","null","null"
"21","exp_ml1","181","::1","5","","2019-03-26 16:26:32","14","subject","random","0","62","null","null"
"21","exp_ml1","181","::1","5","","2019-03-26 16:26:32","14","order","col","0_1","62","null","null"
"21","exp_ml1","181","::1","5","","2019-03-26 16:26:32","14","order","row","0_1","62","null","null"
"21","exp_ml1","181","::1","5","","2019-03-26 16:26:32","14","events","open_close","0_0","62","null","null"
"21","exp_ml1","181","::1","5","","2019-03-26 16:26:32","14","mouseover","b1","1500 ECU","447","null","null"
"21","exp_ml1","181","::1","5","","2019-03-26 16:26:32","14","mouseout","b1","","496","null","null"
"21","exp_ml1","181","::1","5","","2019-03-26 16:26:32","14","mouseover","b0","Tax (20%): 300 ECU ","513","null","null"
"21","exp_ml1","181","::1","5","","2019-03-26 16:26:32","14","mouseout","b0","","863","null","null"
"21","exp_ml1","181","::1","5","","2019-03-26 16:26:32","14","mouseover","a0","20% chance","929","null","null"
"21","exp_ml1","181","::1","5","","2019-03-26 16:26:32","14","mouseout","a0","","2696","null","null"
"21","exp_ml1","181","::1","5","","2019-03-26 16:26:32","14","mouseover","a1","1x evaded amount","2697","null","null"
"21","exp_ml1","181","::1","5","","2019-03-26 16:26:32","14","mouseout","a1","","7547","null","null"
"21","exp_ml1","181","::1","5","","2019-03-26 16:26:32","14","mouseover","b1","1500 ECU","7563","null","null"
"21","exp_ml1","181","::1","5","","2019-03-26 16:26:32","14","mouseout","b1","","8413","null","null"
"21","exp_ml1","181","::1","5","","2019-03-26 16:26:32","14","mouseover","b0","Tax (20%): 300 ECU ","8430","null","null"
"21","exp_ml1","181","::1","5","","2019-03-26 16:26:32","14","mouseout","b0","","10596","null","null"
"21","exp_ml1","181","::1","5","","2019-03-26 16:26:32","14","mouseover","a0","20% chance","11063","null","null"
"21","exp_ml1","181","::1","5","","2019-03-26 16:26:32","14","mouseout","a0","","12445","null","null"
"21","exp_ml1","181","::1","5","","2019-03-26 16:26:32","14","mouseover","b0","Tax (20%): 300 ECU ","12463","null","null"
"21","exp_ml1","181","::1","5","","2019-03-26 16:26:32","14","mouseout","b0","","13196","null","null"
"21","exp_ml1","181","::1","5","","2019-03-26 16:26:32","14","mouseover","a0","20% chance","13213","null","null"
"21","exp_ml1","181","::1","5","","2019-03-26 16:26:32","14","mouseout","a0","","13230","null","null"
"21","exp_ml1","181","::1","5","","2019-03-26 16:26:32","14","mouseover","a1","1x evaded amount","13231","null","null"
"21","exp_ml1","181","::1","5","","2019-03-26 16:26:32","14","mouseout","a1","","13563","null","null"
"21","exp_ml1","181","::1","5","","2019-03-26 16:26:32","14","mouseover","b1","1500 ECU","13563","null","null"
"21","exp_ml1","181","::1","5","","2019-03-26 16:26:32","14","mouseout","b1","","13864","null","null"
"21","exp_ml1","181","::1","5","","2019-03-26 16:26:32","14","submit","submit","submit","19866","null","null"
"22","exp_ml1","181","::1","5","","2019-03-26 16:27:05","15","onload","body","body","99","null","null"
"22","exp_ml1","181","::1","5","","2019-03-26 16:27:05","15","subject","random","0","102","null","null"
"22","exp_ml1","181","::1","5","","2019-03-26 16:27:05","15","order","col","0_1","102","null","null"
"22","exp_ml1","181","::1","5","","2019-03-26 16:27:05","15","order","row","0_1","102","null","null"
"22","exp_ml1","181","::1","5","","2019-03-26 16:27:05","15","events","open_close","0_0","102","null","null"
"22","exp_ml1","181","::1","5","","2019-03-26 16:27:05","15","mouseover","b0","Tax (20%): 400 ECU ","4713","null","null"
"22","exp_ml1","181","::1","5","","2019-03-26 16:27:05","15","mouseout","b0","","4814","null","null"
"22","exp_ml1","181","::1","5","","2019-03-26 16:27:05","15","mouseover","a0","10% chance","4831","null","null"
"22","exp_ml1","181","::1","5","","2019-03-26 16:27:05","15","mouseout","a0","","5598","null","null"
"22","exp_ml1","181","::1","5","","2019-03-26 16:27:05","15","mouseover","a1","1x evaded amount","5598","null","null"
"22","exp_ml1","181","::1","5","","2019-03-26 16:27:05","15","mouseout","a1","","6098","null","null"
"22","exp_ml1","181","::1","5","","2019-03-26 16:27:05","15","mouseover","b1","2000 ECU","6115","null","null"
"22","exp_ml1","181","::1","5","","2019-03-26 16:27:05","15","mouseout","b1","","6397","null","null"
"22","exp_ml1","181","::1","5","","2019-03-26 16:27:05","15","mouseover","b0","Tax (20%): 400 ECU ","6398","null","null"
"22","exp_ml1","181","::1","5","","2019-03-26 16:27:05","15","mouseout","b0","","7147","null","null"
"22","exp_ml1","181","::1","5","","2019-03-26 16:27:05","15","mouseover","b1","2000 ECU","7164","null","null"
"22","exp_ml1","181","::1","5","","2019-03-26 16:27:05","15","mouseout","b1","","7547","null","null"
"22","exp_ml1","181","::1","5","","2019-03-26 16:27:05","15","submit","submit","submit","12093","null","null"
"23","exp_ml1","181","::1","5","","2019-03-26 16:27:34","16","onload","body","body","81","null","null"
"23","exp_ml1","181","::1","5","","2019-03-26 16:27:34","16","subject","random","0","84","null","null"
"23","exp_ml1","181","::1","5","","2019-03-26 16:27:34","16","order","col","0_1","84","null","null"
"23","exp_ml1","181","::1","5","","2019-03-26 16:27:34","16","order","row","0_1","84","null","null"
"23","exp_ml1","181","::1","5","","2019-03-26 16:27:34","16","events","open_close","0_0","84","null","null"
"23","exp_ml1","181","::1","5","","2019-03-26 16:27:34","16","mouseover","b1","1800 ECU","714","null","null"
"23","exp_ml1","181","::1","5","","2019-03-26 16:27:34","16","mouseout","b1","","1147","null","null"
"23","exp_ml1","181","::1","5","","2019-03-26 16:27:34","16","mouseover","b0","Tax (40%): 720 ECU ","1147","null","null"
"23","exp_ml1","181","::1","5","","2019-03-26 16:27:34","16","mouseout","b0","","1831","null","null"
"23","exp_ml1","181","::1","5","","2019-03-26 16:27:34","16","mouseover","a0","10% chance","1831","null","null"
"23","exp_ml1","181","::1","5","","2019-03-26 16:27:34","16","mouseout","a0","","2347","null","null"
"23","exp_ml1","181","::1","5","","2019-03-26 16:27:34","16","mouseover","a1","2x evaded amount","2364","null","null"
"23","exp_ml1","181","::1","5","","2019-03-26 16:27:34","16","mouseout","a1","","2864","null","null"
"23","exp_ml1","181","::1","5","","2019-03-26 16:27:34","16","mouseover","b1","1800 ECU","2864","null","null"
"23","exp_ml1","181","::1","5","","2019-03-26 16:27:34","16","mouseout","b1","","2914","null","null"
"23","exp_ml1","181","::1","5","","2019-03-26 16:27:34","16","submit","submit","submit","7265","null","null"
"24","exp_ml1","181","::1","5","","2019-03-26 16:28:04","17","onload","body","body","127","null","null"
"24","exp_ml1","181","::1","5","","2019-03-26 16:28:04","17","subject","random","0","131","null","null"
"24","exp_ml1","181","::1","5","","2019-03-26 16:28:04","17","order","col","0_1","131","null","null"
"24","exp_ml1","181","::1","5","","2019-03-26 16:28:04","17","order","row","0_1","131","null","null"
"24","exp_ml1","181","::1","5","","2019-03-26 16:28:04","17","events","open_close","0_0","131","null","null"
"24","exp_ml1","181","::1","5","","2019-03-26 16:28:04","17","mouseover","b1","1700 ECU","1012","null","null"
"24","exp_ml1","181","::1","5","","2019-03-26 16:28:04","17","mouseout","b1","","1045","null","null"
"24","exp_ml1","181","::1","5","","2019-03-26 16:28:04","17","mouseover","a1","2x evaded amount","1046","null","null"
"24","exp_ml1","181","::1","5","","2019-03-26 16:28:04","17","mouseout","a1","","1228","null","null"
"24","exp_ml1","181","::1","5","","2019-03-26 16:28:04","17","mouseover","a0","20% chance","1245","null","null"
"24","exp_ml1","181","::1","5","","2019-03-26 16:28:04","17","mouseout","a0","","1645","null","null"
"24","exp_ml1","181","::1","5","","2019-03-26 16:28:04","17","mouseover","b0","Tax (20%): 340 ECU ","1645","null","null"
"24","exp_ml1","181","::1","5","","2019-03-26 16:28:04","17","mouseout","b0","","2027","null","null"
"24","exp_ml1","181","::1","5","","2019-03-26 16:28:04","17","mouseover","b1","1700 ECU","2028","null","null"
"24","exp_ml1","181","::1","5","","2019-03-26 16:28:04","17","mouseout","b1","","2044","null","null"
"24","exp_ml1","181","::1","5","","2019-03-26 16:28:04","17","mouseover","a1","2x evaded amount","2061","null","null"
"24","exp_ml1","181","::1","5","","2019-03-26 16:28:04","17","mouseout","a1","","2478","null","null"
"24","exp_ml1","181","::1","5","","2019-03-26 16:28:04","17","mouseover","b1","1700 ECU","2511","null","null"
"24","exp_ml1","181","::1","5","","2019-03-26 16:28:04","17","mouseout","b1","","2861","null","null"
"24","exp_ml1","181","::1","5","","2019-03-26 16:28:04","17","mouseover","b0","Tax (20%): 340 ECU ","2861","null","null"
"24","exp_ml1","181","::1","5","","2019-03-26 16:28:04","17","mouseout","b0","","3511","null","null"
"24","exp_ml1","181","::1","5","","2019-03-26 16:28:04","17","submit","submit","submit","8639","null","null"
"25","exp_ml1","181","::1","5","","2019-03-26 16:28:37","18","onload","body","body","57","null","null"
"25","exp_ml1","181","::1","5","","2019-03-26 16:28:37","18","subject","random","0","59","null","null"
"25","exp_ml1","181","::1","5","","2019-03-26 16:28:37","18","order","col","0_1","59","null","null"
"25","exp_ml1","181","::1","5","","2019-03-26 16:28:37","18","order","row","0_1","59","null","null"
"25","exp_ml1","181","::1","5","","2019-03-26 16:28:37","18","events","open_close","0_0","59","null","null"
"25","exp_ml1","181","::1","5","","2019-03-26 16:28:37","18","mouseover","b1","1600 ECU","68","null","null"
"25","exp_ml1","181","::1","5","","2019-03-26 16:28:37","18","mouseout","b1","","698","null","null"
"25","exp_ml1","181","::1","5","","2019-03-26 16:28:37","18","mouseover","a1","1x evaded amount","731","null","null"
"25","exp_ml1","181","::1","5","","2019-03-26 16:28:37","18","mouseout","a1","","981","null","null"
"25","exp_ml1","181","::1","5","","2019-03-26 16:28:37","18","mouseover","b1","1600 ECU","998","null","null"
"25","exp_ml1","181","::1","5","","2019-03-26 16:28:37","18","mouseout","b1","","1564","null","null"
"25","exp_ml1","181","::1","5","","2019-03-26 16:28:37","18","mouseover","b0","Tax (40%): 640 ECU ","1564","null","null"
"25","exp_ml1","181","::1","5","","2019-03-26 16:28:37","18","mouseout","b0","","1948","null","null"
"25","exp_ml1","181","::1","5","","2019-03-26 16:28:37","18","mouseover","a0","10% chance","1965","null","null"
"25","exp_ml1","181","::1","5","","2019-03-26 16:28:37","18","mouseout","a0","","2281","null","null"
"25","exp_ml1","181","::1","5","","2019-03-26 16:28:37","18","mouseover","b0","Tax (40%): 640 ECU ","2282","null","null"
"25","exp_ml1","181","::1","5","","2019-03-26 16:28:37","18","mouseout","b0","","4998","null","null"
"25","exp_ml1","181","::1","5","","2019-03-26 16:28:37","18","mouseover","a0","10% chance","5031","null","null"
"25","exp_ml1","181","::1","5","","2019-03-26 16:28:37","18","mouseout","a0","","5498","null","null"
"25","exp_ml1","181","::1","5","","2019-03-26 16:28:37","18","mouseover","a1","1x evaded amount","5498","null","null"
"25","exp_ml1","181","::1","5","","2019-03-26 16:28:37","18","mouseout","a1","","6130","null","null"
"25","exp_ml1","181","::1","5","","2019-03-26 16:28:37","18","mouseover","b1","1600 ECU","6131","null","null"
"25","exp_ml1","181","::1","5","","2019-03-26 16:28:37","18","mouseout","b1","","6180","null","null"
"25","exp_ml1","181","::1","5","","2019-03-26 16:28:37","18","submit","submit","submit","11781","null","null"
"28","exp_ml1","186","::1","5","","2019-03-30 17:13:33","1","onload","body","body","39","null","null"
"28","exp_ml1","186","::1","5","","2019-03-30 17:13:33","1","subject","random","0","42","null","null"
"28","exp_ml1","186","::1","5","","2019-03-30 17:13:33","1","order","col","0_1","42","null","null"
"28","exp_ml1","186","::1","5","","2019-03-30 17:13:33","1","order","row","0_1","42","null","null"
"28","exp_ml1","186","::1","5","","2019-03-30 17:13:33","1","events","open_close","0_0","42","null","null"
"28","exp_ml1","186","::1","5","","2019-03-30 17:13:33","1","submit","submit","submit","2914","null","null"
"29","exp_ml1","186","::1","5","","2019-03-30 17:14:12","1","onload","body","body","41","null","null"
"29","exp_ml1","186","::1","5","","2019-03-30 17:14:12","1","subject","random","0","43","null","null"
"29","exp_ml1","186","::1","5","","2019-03-30 17:14:12","1","order","col","0_1","43","null","null"
"29","exp_ml1","186","::1","5","","2019-03-30 17:14:12","1","order","row","0_1","43","null","null"
"29","exp_ml1","186","::1","5","","2019-03-30 17:14:12","1","events","open_close","0_0","43","null","null"
"29","exp_ml1","186","::1","5","","2019-03-30 17:14:12","1","submit","submit","submit","2343","null","null"
"30","exp_ml1","186","::1","5","","2019-03-30 17:15:00","1","onload","body","body","44","null","null"
"30","exp_ml1","186","::1","5","","2019-03-30 17:15:00","1","subject","random","0","47","null","null"
"30","exp_ml1","186","::1","5","","2019-03-30 17:15:00","1","order","col","0_1","47","null","null"
"30","exp_ml1","186","::1","5","","2019-03-30 17:15:00","1","order","row","0_1","47","null","null"
"30","exp_ml1","186","::1","5","","2019-03-30 17:15:00","1","events","open_close","0_0","47","null","null"
"30","exp_ml1","186","::1","5","","2019-03-30 17:15:00","1","submit","submit","submit","2322","null","null"
"31","exp_ml1","186","::1","5","","2019-03-30 17:17:09","1","onload","body","body","48","null","null"
"31","exp_ml1","186","::1","5","","2019-03-30 17:17:09","1","subject","random","0","50","null","null"
"31","exp_ml1","186","::1","5","","2019-03-30 17:17:09","1","order","col","0_1","50","null","null"
"31","exp_ml1","186","::1","5","","2019-03-30 17:17:09","1","order","row","0_1","50","null","null"
"31","exp_ml1","186","::1","5","","2019-03-30 17:17:09","1","events","open_close","0_0","51","null","null"
"31","exp_ml1","186","::1","5","","2019-03-30 17:17:09","1","submit","submit","submit","48509","null","null"
"32","exp_ml1","186","::1","5","","2019-03-30 17:17:45","1","onload","body","body","50","null","null"
"32","exp_ml1","186","::1","5","","2019-03-30 17:17:45","1","subject","random","0","53","null","null"
"32","exp_ml1","186","::1","5","","2019-03-30 17:17:45","1","order","col","0_1","53","null","null"
"32","exp_ml1","186","::1","5","","2019-03-30 17:17:45","1","order","row","0_1","53","null","null"
"32","exp_ml1","186","::1","5","","2019-03-30 17:17:45","1","events","open_close","0_0","53","null","null"
"32","exp_ml1","186","::1","5","","2019-03-30 17:17:45","1","submit","submit","submit","8631","null","null"
